Refractive Index of 75 % Sulphuric Acid Droplets as given in SRA
     Wavelength (m)  Real Part       Imaginary Part
*BEGIN_DATA
     2.00000e-07     1.49800e+00     1.00000e-08
     2.50000e-07     1.48400e+00     1.00000e-08
     3.00000e-07     1.46900e+00     1.00000e-08
     3.37000e-07     1.45900e+00     1.00000e-08
     4.00000e-07     1.44000e+00     1.00000e-08
     4.88000e-07     1.43200e+00     1.00000e-08
     5.15000e-07     1.43100e+00     1.00000e-08
     5.50000e-07     1.43000e+00     1.00000e-08
     6.33000e-07     1.42900e+00     1.47000e-08
     6.94000e-07     1.42800e+00     1.99000e-08
     8.60000e-07     1.42500e+00     1.79000e-07
     1.06000e-06     1.42000e+00     1.50000e-06
     1.30000e-06     1.41000e+00     1.00000e-05
     1.53600e-06     1.40300e+00     1.37000e-04
     1.80000e-06     1.39000e+00     5.50000e-04
     2.00000e-06     1.38400e+00     1.26000e-03
     2.25000e-06     1.37000e+00     1.80000e-03
     2.50000e-06     1.34400e+00     3.76000e-03
     2.70000e-06     1.30300e+00     5.70000e-03
     3.00000e-06     1.29300e+00     9.55000e-02
     3.20000e-06     1.31100e+00     1.35000e-01
     3.39200e-06     1.35200e+00     1.59000e-01
     3.50000e-06     1.37600e+00     1.58000e-01
     3.75000e-06     1.39600e+00     1.31000e-01
     4.00000e-06     1.39800e+00     1.26000e-01
     4.50000e-06     1.38500e+00     1.20000e-01
     5.00000e-06     1.36000e+00     1.21000e-01
     5.50000e-06     1.33700e+00     1.83000e-01
     6.00000e-06     1.42500e+00     1.95000e-01
     6.20000e-06     1.42400e+00     1.65000e-01
     6.50000e-06     1.37000e+00     1.28000e-01
     7.20000e-06     1.21000e+00     1.76000e-01
     7.90000e-06     1.14000e+00     4.88000e-01
     8.20000e-06     1.20000e+00     6.45000e-01
     8.50000e-06     1.37000e+00     7.55000e-01
     8.70000e-06     1.53000e+00     7.72000e-01
     9.00000e-06     1.65000e+00     6.33000e-01
     9.20000e-06     1.60000e+00     5.86000e-01
     9.50000e-06     1.67000e+00     7.50000e-01
     9.80000e-06     1.91000e+00     6.80000e-01
     1.00000e-05     1.89000e+00     4.55000e-01
     1.05910e-05     1.72000e+00     3.40000e-01
     1.10000e-05     1.67000e+00     4.85000e-01
     1.15000e-05     1.89000e+00     3.74000e-01
     1.25000e-05     1.74000e+00     1.98000e-01
     1.30000e-05     1.69000e+00     1.95000e-01
     1.40000e-05     1.64000e+00     1.95000e-01
     1.48000e-05     1.61000e+00     2.05000e-01
     1.50000e-05     1.59000e+00     2.11000e-01
     1.64000e-05     1.52000e+00     4.14000e-01
     1.72000e-05     1.72400e+00     5.90000e-01
     1.80000e-05     1.95000e+00     4.10000e-01
     1.85000e-05     1.92700e+00     3.02000e-01
     2.00000e-05     1.82300e+00     2.35000e-01
     2.13000e-05     1.78000e+00     2.92000e-01
     2.25000e-05     1.87000e+00     3.15000e-01
     2.50000e-05     1.93000e+00     2.00000e-01
     2.79000e-05     1.92000e+00     1.80000e-01
     3.00000e-05     1.92000e+00     1.80000e-01
     3.50000e-05     1.90000e+00     1.90000e-01
     4.00000e-05     1.89000e+00     2.20000e-01
     1.00000e-01     1.00000e+00     0.00000e+00
*END
