Refractive index of Ammonium Sulphate, from Toon et al (1976)
     Wavelength (m)  Real Part       Imaginary Part
*BEGIN_DATA
     1.00000e-07     1.54000e+00     1.00000e-07
     3.00000e-07     1.54000e+00     1.00000e-07
     4.05000e-07     1.54000e+00     1.00000e-07
     5.35000e-07     1.53000e+00     1.00000e-07
     6.56000e-07     1.52500e+00     1.00000e-07
     7.06000e-07     1.52500e+00     1.00000e-07
     8.00000e-07     1.52500e+00     1.00000e-07
     1.00000e-06     1.51000e+00     3.50000e-07
     1.07000e-06     1.51000e+00     2.40000e-06
     1.15000e-06     1.51000e+00     9.50000e-07
     1.20000e-06     1.50000e+00     3.40000e-06
     1.30000e-06     1.50000e+00     1.70000e-05
     1.40000e-06     1.50000e+00     1.10000e-05
     1.50000e-06     1.49000e+00     3.40000e-05
     1.58000e-06     1.49000e+00     2.10000e-04
     1.60000e-06     1.49000e+00     1.90000e-04
     1.70000e-06     1.49000e+00     9.00000e-05
     1.80000e-06     1.48000e+00     7.60000e-05
     1.90000e-06     1.48000e+00     1.50000e-04
     2.00000e-06     1.47000e+00     1.00000e-03
     2.05000e-06     1.47000e+00     1.50000e-03
     2.14000e-06     1.47000e+00     3.40000e-03
     2.20000e-06     1.46000e+00     1.70000e-03
     2.30000e-06     1.46000e+00     7.70000e-04
     2.40000e-06     1.45000e+00     4.50000e-04
     2.50000e-06     1.44000e+00     3.50000e-04
     2.63000e-06     1.42000e+00     9.00000e-04
     2.78000e-06     1.40000e+00     5.00000e-03
     2.94000e-06     1.33000e+00     5.00000e-02
     3.08000e-06     1.27000e+00     2.30000e-01
     3.13000e-06     1.39000e+00     3.30000e-01
     3.18000e-06     1.49000e+00     2.70000e-01
     3.23000e-06     1.48000e+00     2.40000e-01
     3.30000e-06     1.56000e+00     2.70000e-01
     3.33000e-06     1.61000e+00     2.40000e-01
     3.39000e-06     1.61000e+00     1.70000e-01
     3.45000e-06     1.60000e+00     1.50000e-01
     3.51000e-06     1.62000e+00     1.40000e-01
     3.57000e-06     1.63000e+00     1.00000e-01
     3.85000e-06     1.56000e+00     2.00000e-02
     4.17000e-06     1.53000e+00     1.00000e-02
     4.55000e-06     1.49000e+00     7.00000e-03
     4.76000e-06     1.48000e+00     6.00000e-03
     5.26000e-06     1.44000e+00     7.00000e-03
     5.88000e-06     1.37000e+00     1.00000e-02
     6.25000e-06     1.30000e+00     2.00000e-02
     6.67000e-06     1.11000e+00     9.00000e-02
     6.90000e-06     0.84000e+00     4.00000e-01
     7.07000e-06     1.33000e+00     1.10000e+00
     7.14000e-06     1.85000e+00     8.70000e-01
     7.19000e-06     1.94000e+00     5.80000e-01
     7.41000e-06     1.68000e+00     1.40000e-01
     7.81000e-06     1.41000e+00     7.00000e-02
     8.00000e-06     1.31000e+00     8.00000e-02
     8.33000e-06     1.07000e+00     1.50000e-01
     8.77000e-06     0.64000e+00     8.60000e-01
     9.01000e-06     0.99000e+00     1.70000e+00
     9.17000e-06     1.95000e+00     2.10000e+00
     9.35000e-06     2.86000e+00     1.25000e+00
     9.52000e-06     2.68000e+00     5.30000e-01
     1.00000e-05     2.19000e+00     1.30000e-01
     1.05000e-05     1.99000e+00     6.00000e-02
     1.11000e-05     1.88000e+00     4.00000e-02
     1.18000e-05     1.81000e+00     2.00000e-02
     1.25000e-05     1.75000e+00     2.00000e-02
     1.33000e-05     1.70000e+00     2.00000e-02
     1.43000e-05     1.63000e+00     2.00000e-02
     1.54000e-05     1.47000e+00     3.00000e-02
     1.61000e-05     0.74000e+00     1.18000e+00
     1.63000e-05     2.04000e+00     2.09000e+00
     1.64000e-05     2.77000e+00     5.80000e-01
     1.67000e-05     2.16000e+00     1.00000e-01
     1.82000e-05     1.77000e+00     2.00000e-02
     2.00000e-05     1.69000e+00     2.00000e-02
     2.22000e-05     1.62000e+00     3.00000e-02
     2.50000e-05     1.55000e+00     5.00000e-02
     2.86000e-05     1.42000e+00     1.10000e-01
     3.33000e-05     1.18000e+00     4.60000e-01
     4.00000e-05     2.14000e+00     1.12000e+00
     1.00000e-01     1.00000e+00     0.00000e+00
*END
