Refractive Index of Volcanic Ash Particles as given in SRA
     Wavelength (m)  Real Part       Imaginary Part
*BEGIN_DATA
     2.00000e-07     1.50000e+00     7.00000e-02
     2.50000e-07     1.50000e+00     3.00000e-03
     3.00000e-07     1.50000e+00     1.00000e-02
     3.37000e-07     1.50000e+00     8.00000e-03
     4.00000e-07     1.50000e+00     8.00000e-03
     4.88000e-07     1.50000e+00     8.00000e-03
     5.15000e-07     1.50000e+00     8.00000e-03
     5.50000e-07     1.50000e+00     8.00000e-03
     6.33000e-07     1.50000e+00     8.00000e-03
     6.94000e-07     1.50000e+00     8.00000e-03
     8.60000e-07     1.50000e+00     8.00000e-03
     1.06000e-06     1.50000e+00     8.00000e-03
     1.30000e-06     1.50000e+00     8.00000e-03
     1.53600e-06     1.49000e+00     8.00000e-03
     1.80000e-06     1.48000e+00     8.00000e-03
     2.00000e-06     1.46000e+00     8.00000e-03
     2.25000e-06     1.46000e+00     8.00000e-03
     2.50000e-06     1.46000e+00     9.00000e-03
     2.70000e-06     1.46000e+00     1.00000e-02
     3.00000e-06     1.48000e+00     1.30000e-02
     3.20000e-06     1.48000e+00     1.40000e-02
     3.39200e-06     1.49000e+00     1.20000e-02
     3.50000e-06     1.49000e+00     1.10000e-02
     3.75000e-06     1.50000e+00     9.00000e-03
     4.00000e-06     1.50000e+00     7.00000e-03
     4.50000e-06     1.52000e+00     7.50000e-03
     5.00000e-06     1.51000e+00     9.00000e-03
     5.50000e-06     1.51000e+00     1.20000e-02
     6.00000e-06     1.48000e+00     1.50000e-02
     6.20000e-06     1.46000e+00     1.80000e-02
     6.50000e-06     1.45000e+00     2.40000e-02
     7.20000e-06     1.44000e+00     4.50000e-02
     7.90000e-06     1.38000e+00     7.20000e-02
     8.20000e-06     1.34000e+00     9.70000e-02
     8.50000e-06     1.62000e+00     1.21000e-01
     8.70000e-06     1.95000e+00     1.70000e-01
     9.00000e-06     2.20000e+00     2.15000e-01
     9.20000e-06     2.23000e+00     2.40000e-01
     9.50000e-06     2.25000e+00     2.75000e-01
     9.80000e-06     2.28000e+00     3.04000e-01
     1.00000e-05     2.30000e+00     3.20000e-01
     1.05910e-05     2.20000e+00     3.05000e-01
     1.10000e-05     2.15000e+00     2.70000e-01
     1.15000e-05     2.05000e+00     2.40000e-01
     1.25000e-05     1.80000e+00     1.55000e-01
     1.30000e-05     1.76000e+00     1.48000e-01
     1.40000e-05     1.70000e+00     1.45000e-01
     1.48000e-05     1.65000e+00     1.57000e-01
     1.50000e-05     1.65000e+00     1.70000e-01
     1.64000e-05     1.75000e+00     2.00000e-01
     1.72000e-05     1.85000e+00     2.40000e-01
     1.80000e-05     2.00000e+00     3.05000e-01
     1.85000e-05     2.10000e+00     3.25000e-01
     2.00000e-05     2.25000e+00     3.18000e-01
     2.13000e-05     2.40000e+00     2.90000e-01
     2.25000e-05     2.50000e+00     3.50000e-01
     2.50000e-05     2.60000e+00     4.00000e-01
     2.79000e-05     2.50000e+00     4.30000e-01
     3.00000e-05     2.40000e+00     4.50000e-01
     3.50000e-05     2.30000e+00     5.20000e-01
     4.00000e-05     2.25000e+00     6.50000e-01
     1.00000e-01     1.00000e+00     0.00000e+00
*END
