Wavelengths at which refractive index of ice is given
*BEGIN_DATA
1.90000E-07
1.91000E-07
1.93000E-07
1.95000E-07
2.10000E-07
2.50000E-07
3.00000E-07
3.50000E-07
4.00000E-07
4.10000E-07
4.20000E-07
4.30000E-07
4.40000E-07
4.50000E-07
4.60000E-07
4.70000E-07
4.80000E-07
4.90000E-07
5.00000E-07
5.10000E-07
5.20000E-07
5.30000E-07
5.40000E-07
5.50000E-07
5.60000E-07
5.70000E-07
5.80000E-07
5.90000E-07
6.00000E-07
6.10000E-07
6.20000E-07
6.30000E-07
6.40000E-07
6.50000E-07
6.60000E-07
6.70000E-07
6.80000E-07
6.90000E-07
7.00000E-07
7.10000E-07
7.20000E-07
7.30000E-07
7.40000E-07
7.50000E-07
7.60000E-07
7.70000E-07
7.80000E-07
7.90000E-07
8.00000E-07
8.10000E-07
8.20000E-07
8.30000E-07
8.40000E-07
8.50000E-07
8.60000E-07
8.70000E-07
8.80000E-07
8.90000E-07
9.00000E-07
9.10000E-07
9.20000E-07
9.30000E-07
9.40000E-07
9.50000E-07
9.60000E-07
9.70000E-07
9.80000E-07
9.90000E-07
1.00000E-06
1.01000E-06
1.02000E-06
1.03000E-06
1.04000E-06
1.05000E-06
1.06000E-06
1.07000E-06
1.08000E-06
1.09000E-06
1.10000E-06
1.11000E-06
1.12000E-06
1.13000E-06
1.14000E-06
1.15000E-06
1.16000E-06
1.17000E-06
1.18000E-06
1.19000E-06
1.20000E-06
1.21000E-06
1.22000E-06
1.23000E-06
1.24000E-06
1.25000E-06
1.26000E-06
1.27000E-06
1.28000E-06
1.29000E-06
1.30000E-06
1.31000E-06
1.32000E-06
1.33000E-06
1.34000E-06
1.35000E-06
1.36000E-06
1.37000E-06
1.38000E-06
1.39000E-06
1.40000E-06
1.41000E-06
1.42000E-06
1.43000E-06
1.44000E-06
1.44900E-06
1.46000E-06
1.47100E-06
1.48100E-06
1.49300E-06
1.50400E-06
1.51500E-06
1.52700E-06
1.53800E-06
1.56300E-06
1.58700E-06
1.61300E-06
1.65000E-06
1.68000E-06
1.70000E-06
1.73000E-06
1.76000E-06
1.80000E-06
1.83000E-06
1.84000E-06
1.85000E-06
1.85500E-06
1.86000E-06
1.87000E-06
1.89000E-06
1.90500E-06
1.92300E-06
1.94200E-06
1.96100E-06
1.98000E-06
2.00000E-06
2.02000E-06
2.04100E-06
2.06200E-06
2.08300E-06
2.10500E-06
2.13000E-06
2.15000E-06
2.17000E-06
2.19000E-06
2.22000E-06
2.24000E-06
2.24500E-06
2.25000E-06
2.26000E-06
2.27000E-06
2.29000E-06
2.31000E-06
2.33000E-06
2.35000E-06
2.37000E-06
2.39000E-06
2.41000E-06
2.43000E-06
2.46000E-06
2.50000E-06
2.52000E-06
2.55000E-06
2.56500E-06
2.58000E-06
2.59000E-06
2.60000E-06
2.62000E-06
2.67500E-06
2.72500E-06
2.77800E-06
2.81700E-06
2.83300E-06
2.84900E-06
2.86500E-06
2.88200E-06
2.89900E-06
2.91500E-06
2.93300E-06
2.95000E-06
2.96700E-06
2.98500E-06
3.00300E-06
3.02100E-06
3.04000E-06
3.05800E-06
3.07700E-06
3.09600E-06
3.11500E-06
3.13500E-06
3.15500E-06
3.17500E-06
3.19500E-06
3.21500E-06
3.23600E-06
3.25700E-06
3.27900E-06
3.30000E-06
3.32200E-06
3.34500E-06
3.36700E-06
3.39000E-06
3.41300E-06
3.43600E-06
3.46000E-06
3.48400E-06
3.50900E-06
3.53400E-06
3.55900E-06
3.62400E-06
3.73200E-06
3.77500E-06
3.84700E-06
3.96900E-06
4.09900E-06
4.23900E-06
4.34800E-06
4.38700E-06
4.44400E-06
4.50500E-06
4.54700E-06
4.56000E-06
4.58000E-06
4.71900E-06
4.90400E-06
5.00000E-06
5.10000E-06
5.20000E-06
5.26300E-06
5.40000E-06
5.55600E-06
5.71400E-06
5.74700E-06
5.78000E-06
5.81400E-06
5.84800E-06
5.88200E-06
6.06100E-06
6.13500E-06
6.25000E-06
6.28900E-06
6.32900E-06
6.36900E-06
6.41000E-06
6.45200E-06
6.49400E-06
6.57900E-06
6.66700E-06
6.75700E-06
6.89700E-06
7.04200E-06
7.14300E-06
7.24600E-06
7.35300E-06
7.46300E-06
7.57600E-06
7.69200E-06
7.81200E-06
7.93700E-06
8.06500E-06
8.19700E-06
8.33300E-06
8.47500E-06
8.69600E-06
8.92900E-06
9.09100E-06
9.25900E-06
9.52400E-06
9.80400E-06
1.00000E-05
1.02000E-05
1.03100E-05
1.04200E-05
1.05300E-05
1.06400E-05
1.07500E-05
1.08700E-05
1.10000E-05
1.11100E-05
1.13600E-05
1.16300E-05
1.19000E-05
1.22000E-05
1.25000E-05
1.28200E-05
1.29900E-05
1.31600E-05
1.33300E-05
1.35100E-05
1.37000E-05
1.38900E-05
1.40800E-05
1.42900E-05
1.47100E-05
1.51500E-05
1.53800E-05
1.56300E-05
1.61300E-05
1.63900E-05
1.66700E-05
1.69500E-05
1.72400E-05
1.81800E-05
1.88700E-05
1.92300E-05
1.96100E-05
2.00000E-05
2.04100E-05
2.08300E-05
2.22200E-05
2.26000E-05
2.30500E-05
2.36000E-05
2.46000E-05
2.50000E-05
2.60000E-05
2.85700E-05
3.10000E-05
3.33300E-05
3.44800E-05
3.56400E-05
3.70000E-05
3.82400E-05
3.96000E-05
4.11400E-05
4.27600E-05
4.35800E-05
4.45800E-05
4.55000E-05
4.61500E-05
4.67100E-05
4.73600E-05
4.80000E-05
4.87800E-05
5.00300E-05
5.12800E-05
5.27500E-05
5.35000E-05
5.42400E-05
5.50000E-05
5.57400E-05
5.64000E-05
5.70000E-05
5.74600E-05
5.84000E-05
5.92900E-05
6.00000E-05
6.10000E-05
6.12500E-05
6.25000E-05
6.37800E-05
6.46700E-05
6.55800E-05
6.65500E-05
6.76000E-05
6.90000E-05
7.05300E-05
7.30000E-05
7.50000E-05
7.62900E-05
8.00000E-05
8.29700E-05
8.50000E-05
8.68000E-05
9.08000E-05
9.51700E-05
1.00000E-04
1.20000E-04
1.50000E-04
1.67000E-04
*END
